Folder: ME33001_LAB

File: lab session.txt
Load (N)	Time (s)	Extension (mm)

0.22	0	-0.97139
2.71	0.6	-0.96014
1.21	1.2	-0.93655
0.11	1.8	-0.9194
1.1	2.4	-0.90037
-0.22	3	-0.87545
3.26	3.6	-0.85937
3.92	4.2	-0.84061
1.16	4.8	-0.81516
4.09	5.4	-0.79934
4.36	6	-0.78085
0.99	6.6	-0.75405
4.53	7.2	-0.73905
6.52	7.8	-0.72056
-1.55	8.4	-0.69269
2.37	9	-0.67902
2.6	9.6	-0.66053
1.1	10.2	-0.63695
1.88	10.8	-0.61899
3.26	11.4	-0.6005
-0.99	12	-0.57692
0.33	12.6	-0.55869
0.22	13.2	-0.5402
-0.17	13.8	-0.51555
1.99	14.4	-0.49867
3.53	15	-0.48017
2.6	15.6	-0.45472
3.92	16.2	-0.43864
5.36	16.8	-0.42041
3.98	17.4	-0.39415
4.69	18	-0.37834
5.36	18.6	-0.36012
5.36	19.2	-0.33466
0.72	19.8	-0.31804
2.37	20.4	-0.30036
1.38	21	-0.27597
1.21	21.6	-0.25855
2.54	22.2	-0.24006
1.82	22.8	-0.21728
0.5	23.4	-0.19772
2.6	24	-0.17976
2.76	24.6	-0.15725
5.91	25.2	-0.13715
9.11	25.8	-0.11973
10.38	26.4	-0.09803
9.78	27	-0.0782
15.08	27.6	-0.05997
17.12	28.2	-0.0388
14.75	28.8	-0.0171
19.99	29.4	0.00032
28.83	30	0.02042
37.06	30.6	0.0432
50.86	31.2	0.06008
64.95	31.8	0.08018
81.02	32.4	0.1035
96.32	33	0.12011
111.39	33.6	0.13967
126.19	34.2	0.16379
139.61	34.8	0.18068
154.47	35.4	0.19997
174.3	36	0.22275
189.21	36.6	0.2399
203.9	37.2	0.25893
222.45	37.8	0.28305
238.97	38.4	0.29993
253.71	39	0.31896
269.06	39.6	0.34281
285.52	40.2	0.35996
300.76	40.8	0.37872
313.36	41.4	0.40444
329.15	42	0.41999
344.67	42.6	0.43848
361.46	43.2	0.4634
375.26	43.8	0.48002
390.07	44.4	0.49851
404.81	45	0.52263
418.07	45.6	0.54031
434.36	46.2	0.55854
453.96	46.8	0.58346
468.54	47.4	0.60007
483.62	48	0.61856
500.9	48.6	0.64322
515.37	49.2	0.6601
528.41	49.8	0.67832
544.98	50.4	0.70298
558.78	51	0.7204
572.09	51.6	0.73835
586.73	52.2	0.76328
596.23	52.8	0.78016
609.54	53.4	0.79865
624.56	54	0.8225
636.93	54.6	0.84019
648.36	55.2	0.85841
662.39	55.8	0.88173
672.22	56.4	0.90048
682.66	57	0.91844
693.98	57.6	0.94122
706.9	58.2	0.96051
717.61	58.8	0.97847
728.11	59.4	1.00071
736.94	60	1.02054
745.23	60.6	1.0385
753.46	61.2	1.05967
762.57	61.8	1.08084
770.41	62.4	1.09826
777.48	63	1.11862
783.28	63.6	1.1406
794.93	64.2	1.15802
806.09	64.8	1.17838
819.89	65.4	1.20063
830.5	66	1.21831
838.56	66.6	1.23815
851.32	67.2	1.26092
859.99	67.8	1.27807
869.43	68.4	1.29764
886.22	69	1.32122
894.12	69.6	1.3381
903.62	70.2	1.35713
916.71	70.8	1.38125
925.32	71.4	1.39786
933.33	72	1.41662
947.08	72.6	1.44128
955.09	73.2	1.45762
963.81	73.8	1.47638
971.77	74.4	1.50131
978.61	75	1.51765
988.11	75.6	1.53614
1000.21	76.2	1.5616
1004.96	76.8	1.57768
1013.74	77.4	1.59617
1023.4	78	1.62136
1030.91	78.6	1.63798
1037.43	79.2	1.6562
1051.51	79.8	1.68139
1058.14	80.4	1.69774
1066.92	81	1.71596
1077.91	81.6	1.74142
1084.82	82.2	1.75777
1090.5	82.8	1.77626
1100.83	83.4	1.80091
1109.61	84	1.8178
1114.69	84.6	1.83575
1123.92	85.2	1.86041
1127.84	85.8	1.87783
1133.64	86.4	1.89605
1142.69	87	1.92043
1147.33	87.6	1.93839
1154.07	88.2	1.95608
1163.57	88.8	1.97993
1168.43	89.4	1.99815
1172.57	90	2.01611
1181.74	90.6	2.03942
1190.91	91.2	2.05845
1194.77	91.8	2.0764
1202.83	92.4	2.09891
1212	93	2.11874
1216.14	93.6	2.13643
1221.72	94.2	2.15787
1232.66	94.8	2.17877
1236.69	95.4	2.19646
1241.11	96	2.21736
1247.95	96.6	2.2388
1251.88	97.2	2.25649
1256.13	97.8	2.27712
1265.85	98.4	2.29883
1268.44	99	2.31625
1275.4	99.6	2.33635
1281.09	100.2	2.35886
1284.74	100.8	2.37628
1289.15	101.4	2.39611
1300.14	102	2.41942
1303.18	102.6	2.43631
1307.82	103.2	2.45587
1315.77	103.8	2.47945
1318.81	104.4	2.49633
1320.08	105	2.51536
1155.45	105.6	2.53975
1165.78	106.2	2.55663
1172.46	106.8	2.57539
1179.47	107.4	2.60031
1185.77	108	2.61666
1191.35	108.6	2.63542
1199.96	109.2	2.66061
1202.78	109.8	2.67669
1208.14	110.4	2.69518
1214.98	111	2.72037
1221.72	111.6	2.73672
1229.84	112.2	2.75494
1239.73	112.8	2.7804
1245.69	113.4	2.79675
1242.93	114	2.81497
1256.74	114.6	2.84016
1262.59	115.2	2.85651
1263.03	115.8	2.87473
1274.19	116.4	2.89992
1276.95	117	2.91627
1281.59	117.6	2.93476
1286.45	118.2	2.95968
1287.11	118.8	2.9763
1290.98	119.4	2.99452
1297.05	120	3.01944
1298.87	120.6	3.03659
1300.31	121.2	3.05482
1302.79	121.8	3.0792
448.11	122.4	3.0993
451.04	123	3.11752
440.43	123.6	3.14245
422.32	124.2	3.1596
427.23	124.8	3.17782
431.54	125.4	3.20194
398.68	126	3.21989
405.64	126.6	3.23812
407.13	127.2	3.26116
369.63	127.8	3.27992
373.88	128.4	3.29815
378.47	129	3.32173
369.13	129.6	3.34022
363.61	130.2	3.35844
368.47	130.8	3.38122
373.55	131.4	3.39998
356.05	132	3.4182
360.19	132.6	3.44098
364.11	133.2	3.46028
364.83	133.8	3.4785
338.1	134.4	3.50101
343.56	135	3.52084
301.54	135.6	3.5388
282.37	136.2	3.5605
284.25	136.8	3.58087
289	137.4	3.59856
275.97	138	3.62
278.67	138.6	3.64117
282.87	139.2	3.65859
273.21	139.8	3.67949
270.06	140.4	3.70119
273.26	141	3.71861
277.35	141.6	3.73844
271.6	142.2	3.76149
257.52	142.8	3.77864
260.78	143.4	3.79794
262.05	144	3.82206
264.04	144.6	3.83867
254.43	145.2	3.85797
250.29	145.8	3.88182
254.04	146.4	3.89897
258.02	147	3.91799
259.84	147.6	3.94211
262.33	148.03	3.9539